Folder: Lab_Portfolio/Thin Films Code

File: si02_si_refSample.csv
"Wavelength (nm)", "Reflectance (%)"
199.97, 50.303
203.77, 63.8608
207.57, 67.3418
211.37, 56.486
215.17, 45.2157
218.96, 58.3966
222.76, 67.5057
226.55, 65.7408
230.34, 52.8453
234.13, 40.3134
237.91, 48.7562
241.7, 62.0864
245.48, 67.9617
249.26, 66.9458
253.04, 59.6808
256.81, 50.271
260.59, 50.8788
264.36, 61.9362
268.13, 71.3035
271.9, 75.187
275.67, 74.1956
279.43, 69.3231
283.19, 60.6447
286.95, 50.9129
290.71, 45.8604
294.47, 48.103
298.23, 53.4754
301.98, 57.8626
305.73, 60.0448
309.48, 59.7066
313.23, 57.0778
316.97, 52.0858
320.72, 45.0404
324.46, 37.3609
328.2, 30.77
331.94, 28.8648
335.68, 31.7663
339.41, 37.8198
343.14, 44.4091
346.87, 49.9321
350.6, 54.1173
354.33, 56.9057
358.05, 58.5239
361.78, 58.5985
365.5, 56.4997
369.22, 51.791
372.93, 45.0403
376.65, 37.7438
380.36, 31.1798
384.08, 26.8297
387.78, 24.0734
391.49, 23.4189
395.2, 25.5506
398.9, 29.4747
402.61, 33.7611
406.31, 37.4785
410, 40.596
413.7, 42.8595
417.39, 44.3356
421.09, 44.9049
424.78, 45.0326
428.47, 44.1828
432.15, 42.6381
435.84, 40.4696
439.52, 37.6558
443.2, 34.466
446.88, 30.6704
450.56, 26.8612
454.24, 22.8939
457.91, 19.2656
461.58, 16.2494
465.25, 13.9622
468.92, 12.7198
472.58, 12.4937
476.25, 13.2204
479.91, 14.9725
483.57, 17.2862
487.23, 19.6682
490.89, 22.7792
494.54, 25.583
498.19, 28.256
501.84, 30.771
505.49, 32.9033
509.14, 34.7758
512.79, 36.3078
516.43, 37.4981
520.07, 38.3743
523.71, 38.7504
527.35, 38.9011
530.98, 38.7495
534.62, 38.3089
538.25, 37.3696
541.88, 36.4151
545.51, 35.0968
549.13, 33.4804
552.76, 31.7945
556.38, 29.7723
560, 27.7871
563.62, 25.639
567.23, 23.2785
570.85, 20.8606
574.46, 18.6831
578.07, 16.6197
581.68, 14.697
585.29, 13.0528
588.89, 11.6082
592.5, 10.3868
596.1, 9.5144
599.7, 8.9852
603.3, 8.8278
606.89, 8.9813
610.49, 9.3891
614.08, 10.2025
617.67, 11.2242
621.26, 12.4727
624.84, 13.8099
628.43, 15.337
632.01, 16.9248
635.59, 18.5387
639.17, 20.2114
642.74, 21.8974
646.32, 23.3184
649.89, 24.9292
653.46, 26.2195
657.03, 27.1337
660.6, 28.4262
664.16, 29.853
667.73, 30.8983
671.29, 31.6518
674.85, 32.3828
678.41, 33.1062
681.96, 33.6747
685.52, 34.058
689.07, 34.4616
692.62, 34.7021
696.17, 34.8507
699.71, 34.931
703.26, 34.9056
706.8, 34.7872
710.34, 34.5725
713.88, 34.2303
717.41, 33.8739
720.95, 33.4127
724.48, 33.0005
728.01, 32.3551
731.54, 31.5656
735.07, 30.8888
738.6, 30.1761
742.12, 29.3096
745.64, 28.4406
749.16, 27.5211
752.68, 26.5011
756.19, 25.4909
759.71, 24.4038
763.22, 23.4343
766.73, 22.4221
770.24, 21.2694
773.74, 20.2907
777.25, 19.2425
780.75, 18.1509
784.25, 17.0655
787.75, 16.042
791.25, 15.0257
794.74, 14.0392
798.24, 13.1537
801.73, 12.2852
805.22, 11.4789
808.7, 10.7199
812.19, 10.064
815.67, 9.4473
819.15, 8.9022
822.63, 8.4322
826.11, 8.0537
829.59, 7.7204
833.06, 7.5086
836.53, 7.4165
840, 7.3317
843.47, 7.3073
846.94, 7.387
850.4, 7.5626
853.86, 7.7869
857.33, 8.0769
860.78, 8.4304
864.24, 8.8651
867.7, 9.3092
871.15, 9.7976
874.6, 10.3541
878.05, 10.9024
881.5, 11.5245
884.94, 12.1702
888.39, 12.8491
891.83, 13.5915
895.27, 14.2979
898.71, 14.9532
902.14, 15.6561
905.58, 16.4139
909.01, 17.1712
912.44, 17.8745
915.87, 18.5041
919.29, 19.1572
922.72, 19.8879
926.14, 20.6517
929.56, 21.3185
932.98, 21.9445
936.4, 22.5662
939.81, 23.2136
943.23, 23.9049
946.64, 24.5488
950.05, 25.0899
953.45, 25.561
956.86, 26.0206
960.26, 26.612
963.66, 27.1378
967.06, 27.5769
970.46, 28.0044
973.86, 28.4664
977.25, 28.8896
980.64, 29.2378
984.03, 29.5531
987.42, 29.8812
990.81, 30.2278
994.19, 30.4734
997.58, 30.8253
1000.96, 31.1288
1004.34, 31.4308
1007.71, 31.5651
1011.09, 31.7255
1014.46, 31.8272
1017.83, 32.0763
1021.2, 32.2849
1024.57, 32.482
1027.94, 32.5642
1031.3, 32.6834
1034.66, 32.7786
1038.02, 32.8716
1041.38, 33.0628
1044.74, 33.079
1048.09, 33.0947
1051.44, 33.0095
1054.79, 33.0329
1058.14, 33.0283
1061.49, 33.1894
1064.83, 33.183
1068.18, 33.2047
1071.52, 33.1641
1074.86, 32.9583
1078.19, 32.8814
1081.53, 32.7089
1084.86, 32.6055
1088.19, 32.4283
1091.52, 32.3348
1094.85, 32.3958
1098.18, 31.1116
1100.17, 30.3563